File: Paper Absorbance and Fluorescence Code/D4/D4ACN5uM/D4ACN5uMEmissionMatlab.csv
D4ACN5uMEx470nmA,,D4ACN5uMEx460nmA,,D4ACN5uMEx450nmA,,D4ACN5uMEx440nmA,,D4ACN5uMEx430nmA,,D4ACN5uMEx420nmA,,D4ACN5uMEx410nmA,,D4ACN5uMEx400nmA,,D4ACN5uMEx470nmB,,D4ACN5uMEx460nmB,,D4ACN5uMEx450nmB,,D4ACN5uMEx440nmB,,D4ACN5uMEx430nmB,,D4ACN5uMEx420nmB,,D4ACN5uMEx410nmB,,D4ACN5uMEx400nmB,,D4ACN5uMEx470nmC,,D4ACN5uMEx460nmC,,D4ACN5uMEx450nmC,,D4ACN5uMEx440nmC,,D4ACN5uMEx430nmC,,D4ACN5uMEx420nmC,,D4ACN5uMEx410nmC,,D4ACN5uMEx400nmC,
Wavelength (nm),Intensity (a.u.),Wavelength (nm),Intensity (a.u.),Wavelength (nm),Intensity (a.u.),Wavelength (nm),Intensity (a.u.),Wavelength (nm),Intensity (a.u.),Wavelength (nm),Intensity (a.u.),Wavelength (nm),Intensity (a.u.),Wavelength (nm),Intensity (a.u.),Wavelength (nm),Intensity (a.u.),Wavelength (nm),Intensity (a.u.),Wavelength (nm),Intensity (a.u.),Wavelength (nm),Intensity (a.u.),Wavelength (nm),Intensity (a.u.),Wavelength (nm),Intensity (a.u.),Wavelength (nm),Intensity (a.u.),Wavelength (nm),Intensity (a.u.),Wavelength (nm),Intensity (a.u.),Wavelength (nm),Intensity (a.u.),Wavelength (nm),Intensity (a.u.),Wavelength (nm),Intensity (a.u.),Wavelength (nm),Intensity (a.u.),Wavelength (nm),Intensity (a.u.),Wavelength (nm),Intensity (a.u.),Wavelength (nm),Intensity (a.u.)
480,10.6132,470,23.9138,460,35.4447,450,26.2662,440,10.8104,430,2.87888,420,1.48024,410,1.03027,480,10.6595,470,23.9584,460,35.1266,450,26.6442,440,10.9632,430,2.92113,420,1.40039,410,1.01107,480,10.5847,470,23.9869,460,35.0057,450,26.3352,440,10.8224,430,2.91782,420,1.39161,410,0.982043
481.96,11.1051,471.96,26.3486,461.96,41.5723,451.96,33.2639,441.96,14.1014,432,3.5921,421.96,1.34074,412,1.15543,481.96,11.0572,471.96,26.2968,461.96,41.3988,451.96,32.5842,441.96,14.0825,432,3.42024,421.96,1.47741,412,0.961652,481.96,10.902,471.96,26.2275,461.96,41.2136,451.96,32.4833,441.96,13.6847,432,3.61411,421.96,1.46507,412,1.20177
483.93,11.9025,473.93,28.9694,463.93,48.723,453.93,40.3971,443.93,18.5203,434,4.61705,423.93,1.51611,414,1.05106,483.93,11.6743,473.93,29.0228,463.93,48.5792,453.93,40.4057,443.93,18.4389,434,4.78702,423.93,1.50802,414,1.03365,483.93,11.5748,473.93,29.0304,463.93,48.2043,453.93,39.9808,443.93,18.0126,434,4.71732,423.93,1.68953,414,1.10289
486.06,11.954,476.06,31.4761,466.06,56.1845,456.06,50.7109,446.06,24.1858,436,6.40137,426.06,1.87545,416,1.12946,486.06,12.2289,476.06,31.4938,466.06,55.6027,456.06,50.3222,446.06,24.4783,436,6.43557,426.06,1.92321,416,1.19469,486.06,11.9283,476.06,31.2059,466.06,55.4559,456.06,50.0848,446.06,24.9949,436,6.49368,426.06,1.77643,416,1.04568
488.03,12.6143,478.03,33.9224,468.03,63.2305,458.03,61.3369,448.03,31.7208,438,8.58449,428.03,2.13278,418,1.1742,488.03,12.7776,478.03,33.9833,468.03,63.1655,458.03,61.4562,448.03,31.6088,438,8.77342,428.03,2.26161,418,1.09593,488.03,12.8107,478.03,33.9284,468.03,63.1128,458.03,61.2355,448.03,31.2105,438,8.60497,428.03,2.24001,418,1.22569
490,13.1861,480,36.482,470,71.3926,460,73.3213,450,40.2902,440,11.7795,430,2.79225,420,1.29352,490,13.2167,480,36.3358,470,70.984,460,73.5139,450,40.7353,440,11.872,430,2.91931,420,1.37532,490,13.0286,480,36.2692,470,71.33181,460,72.8175,450,40.1112,440,11.8358,430,2.81434,420,1.35266
491.96,13.4646,481.96,38.9523,471.96,78.9205,461.96,86.8254,451.96,50.6456,441.96,15.292,432,3.74769,421.96,1.30369,491.96,13.5713,481.96,38.883,471.96,78.7351,461.96,86.7095,451.96,50.9971,441.96,15.3291,432,3.62993,421.96,1.46228,491.96,13.4612,481.96,38.8533,471.96,78.7922,461.96,85.9193,451.96,50.4184,441.96,15.3462,432,3.6598,421.96,1.44275
493.93,13.4756,483.93,41.0077,473.93,87.2855,463.93,100.66,453.93,62.9826,443.93,20.1121,434,4.92327,423.93,1.70118,493.93,13.8451,483.93,41.3419,473.93,87.0459,463.93,101.064,453.93,62.7413,443.93,20.3163,434,4.82095,423.93,1.48988,493.93,13.8807,483.93,40.8059,473.93,86.658,463.93,100.522,453.93,62.2677,443.93,20.3011,434,5.09895,423.93,1.70171
496.06,14.3569,486.06,43.1549,476.06,94.6645,466.06,116.326,456.06,77.822,446.06,26.9037,436,6.37508,426.06,1.86268,496.06,14.0881,486.06,43.4645,476.06,95.1932,466.06,117.273,456.06,78.4524,446.06,27.4486,436,6.44752,426.06,2.08698,496.06,13.9271,486.06,42.7886,476.06,94.4711,466.06,115.764,456.06,77.9853,446.06,27.0541,436,6.46355,426.06,1.71549
498.03,14.3054,488.03,44.9453,478.03,102.574,468.03,132.285,458.03,95.3035,448.03,34.3948,438,8.69483,428.03,2.31145,498.03,14.3604,488.03,44.8832,478.03,101.959,468.03,133.25,458.03,95.7252,448.03,34.9148,438,8.75574,428.03,2.19454,498.03,14.1647,488.03,44.8409,478.03,101.562,468.03,131.986,458.03,95.3092,448.03,34.1939,438,8.78158,428.03,2.39687
500,14.4626,490,46.3675,480,109.837,470,147.975,460,113.408,450,44.2926,440,11.6437,430,2.81435,500,14.5016,490,46.2987,480,110.293,470,148.923,460,114.132,450,44.5223,440,11.5768,430,2.95587,500,14.565,490,46.3661,480,110.428,470,147.368,460,112.735,450,44.2814,440,11.9414,430,2.87503
501.94,14.4792,491.96,47.9736,481.96,116.744,471.96,163.646,461.96,134.235,451.96,55.3827,441.96,15.3745,432,3.72158,501.94,14.6131,491.96,48.0998,481.96,116.99,471.96,164.739,461.96,134.998,451.96,55.8668,441.96,15.3561,432,3.40488,501.94,14.4354,491.96,47.7535,481.96,115.931,471.96,162.874,461.96,134.229,451.96,54.954,441.96,15.0125,432,3.46839
504.02,14.5964,493.93,48.5249,483.93,122.764,473.93,180.815,463.93,156.424,453.93,68.2324,443.93,20.0564,434,4.57022,504.02,14.4078,493.93,48.6095,483.93,123.38,473.93,181.696,463.93,156.969,453.93,69.4658,443.93,20.2994,434,4.54121,504.02,14.6337,493.93,48.588,483.93,122.765,473.93,179.8,463.93,156.372,453.93,67.8469,443.93,20.1696,434,4.69636
505.97,14.6015,496.06,50.1695,486.06,129.073,476.06,196.116,466.06,179.988,456.06,85.455,446.06,26.4662,436,6.29756,505.97,14.8301,496.06,50.1778,486.06,129.703,476.06,197.439,466.06,181.236,456.06,86.1612,446.06,26.9745,436,6.26552,505.97,14.5241,496.06,49.7979,486.06,129.049,476.06,194.664,466.06,179.935,456.06,85.4939,446.06,26.9264,436,6.16673
508.05,14.2132,498.03,50.5521,488.03,134.221,478.03,211.835,468.03,206.262,458.03,104.171,448.03,34.4589,438,8.30327,508.05,14.4764,498.03,50.7987,488.03,134.091,478.03,212.034,468.03,206.601,458.03,104.415,448.03,34.6253,438,8.57201,508.05,14.4453,498.03,50.1281,488.03,134.13,478.03,210.914,468.03,204.107,458.03,103.486,448.03,34.2791,438,8.42957
510,14.4175,500,50.6009,490,138.618,480,227.904,470,229.777,460,124.425,450,44.1364,440,11.4799,510,14.3551,500,50.7256,490,139.016,480,227.475,470,230.228,460,124.751,450,44.0796,440,11.5837,510,14.0849,500,51.069,490,138.553,480,226.624,470,229.251,460,123.503,450,44.1561,440,11.4466
511.94,14.2831,501.94,51.0642,491.96,142.57,481.96,240.973,471.96,253.704,461.96,146.786,451.96,55.4063,441.96,14.5846,511.94,14.3689,501.94,51.2755,491.96,143.258,481.96,241.769,471.96,254.606,461.96,147.394,451.96,56.2422,441.96,15.0155,511.94,14.1861,501.94,51.1662,491.96,142.436,481.96,239.832,471.96,252.654,461.96,145.825,451.96,55.2835,441.96,14.7965
514.02,13.9169,504.02,50.9495,493.93,146.028,483.93,254.672,473.93,280.95,463.93,170.971,453.93,68.1044,443.93,19.318,514.02,14.1286,504.02,51.4757,493.93,146.898,483.93,255.565,473.93,280.771,463.93,171.272,453.93,68.7071,443.93,19.9262,514.02,14.1634,504.02,50.9156,493.93,145.727,483.93,254.175,473.93,279.485,463.93,169.858,453.93,68.5166,443.93,19.6113
515.97,14.0211,505.97,50.9783,496.06,148.305,486.06,267.713,476.06,305.396,466.06,196.386,456.06,85.8288,446.06,25.9837,515.97,13.5382,505.97,51.1582,496.06,147.793,486.06,268.695,476.06,306.141,466.06,197.836,456.06,85.883,446.06,25.9985,515.97,13.6903,505.97,51.2189,496.06,148.526,486.06,267.626,476.06,303.688,466.06,195.819,456.06,85.4079,446.06,26.2653
518.05,13.5101,508.05,50.9049,498.03,150.352,488.03,277.699,478.03,328.821,468.03,224.762,458.03,103.385,448.03,33.3109,518.05,13.1787,508.05,50.9249,498.03,150.787,488.03,278.79,478.03,330.714,468.03,225.414,458.03,104.297,448.03,33.3702,518.05,13.5237,508.05,50.6184,498.03,149.736,488.03,276.694,478.03,328.369,468.03,222.667,458.03,103.563,448.03,33.1552
520,13.4358,510,50.0281,500,151.799,490,287.141,480,352.626,470,250.922,460,123.516,450,42.2871,520,13.4237,510,50.4956,500,151.067,490,288.431,480,353.048,470,251.474,460,124.98,450,42.8774,520,13.3611,510,50.0759,500,151.486,490,287.014,480,350.77,470,248.843,460,123.364,450,43.0734
521.96,13.0063,511.94,49.3162,501.94,151.879,491.96,294.726,481.96,373.419,471.96,276.901,461.96,145.768,451.96,53.3897,521.96,13.1867,511.94,49.9108,501.94,152.825,491.96,296.402,481.96,375.823,471.96,277.842,461.96,147.037,451.96,53.7617,521.96,13.2269,511.94,50.0972,501.94,152.095,491.96,295.012,481.96,371.626,471.96,275.894,461.96,146.065,451.96,53.8642
523.93,12.5714,514.02,49.2194,504.02,151.734,493.93,301.406,483.93,394.686,473.93,305.484,463.93,169.698,453.93,65.7754,523.93,12.8742,514.02,49.143,504.02,153.183,493.93,302.523,483.93,396.05,473.93,306.742,463.93,171.452,453.93,66.4905,523.93,12.9241,514.02,49.3346,504.02,151.604,493.93,301.503,483.93,391.634,473.93,304.551,463.93,170.987,453.93,67.3578
526.06,12.4196,515.97,48.3166,505.97,150.994,496.06,306.528,486.06,414.646,476.06,332.299,466.06,196.844,456.06,82.4293,526.06,12.6323,515.97,49.0592,505.97,152.403,496.06,308.111,486.06,415.824,476.06,333.219,466.06,197.449,456.06,82.0417,526.06,12.769,515.97,48.506,505.97,151.221,496.06,305.758,486.06,412.468,476.06,330.484,466.06,196.823,456.06,82.8801
528.03,12.2978,518.05,47.6169,508.05,150.183,498.03,309.097,488.03,429.1,478.03,358.494,468.03,223.32,458.03,99.7381,528.03,12.4582,518.05,47.1897,508.05,150.921,498.03,310.954,488.03,430.703,478.03,360.659,468.03,224.356,458.03,100.423,528.03,12.4446,518.05,46.9216,508.05,149.799,498.03,309.635,488.03,429.501,478.03,355.715,468.03,222.963,458.03,100.291
530,11.9341,520,46.567,510,148.327,500,311.381,490,443.953,480,383.644,470,248.453,460,119.294,530,12.0442,520,46.849,510,149.167,500,312.796,490,445.99,480,386.005,470,249.762,460,119.521,530,12.1116,520,46.3308,510,149.359,500,311.657,490,443.051,480,381.512,470,250.359,460,118.913
531.94,11.4388,521.96,45.0499,511.94,147.256,501.94,312.649,491.96,457.084,481.96,407.439,471.96,276.99,461.96,141.062,531.94,11.9927,521.96,45.5163,511.94,147.383,501.94,314.477,491.96,458.804,481.96,407.377,471.96,277.138,461.96,141.484,531.94,11.8313,521.96,45.7467,511.94,147.195,501.94,313.18,491.96,454.47,481.96,404.486,471.96,274.598,461.96,140.324
534.02,11.4332,523.93,44.3719,514.02,144.989,504.02,312.4,493.93,465.272,483.93,429.773,473.93,302.247,463.93,163.705,534.02,11.576,523.93,44.7539,514.02,145.615,504.02,314.528,493.93,468.419,483.93,431.386,473.93,305.62,463.93,163.785,534.02,11.4168,523.93,44.0973,514.02,144.794,504.02,312.897,493.93,464.633,483.93,427.569,473.93,303.654,463.93,164.413
535.97,11.1353,526.06,43.0219,515.97,142.058,505.97,311.187,496.06,474.198,486.06,450.608,476.06,330.854,466.06,188.513,535.97,11.2695,526.06,43.5771,515.97,143.425,505.97,312.144,496.06,477.09,486.06,453.441,476.06,332.238,466.06,189.542,535.97,10.9695,526.06,43.2069,515.97,142.854,505.97,311.957,496.06,472.286,486.06,447.117,476.06,330.674,466.06,188.199
538.05,10.9287,528.03,42.0633,518.05,139.688,508.05,308.336,498.03,480.166,488.03,468.633,478.03,356.211,468.03,214.944,538.05,10.7708,528.03,42.5956,518.05,139.767,508.05,311.175,498.03,481.267,488.03,468.83,478.03,359.282,468.03,215.807,538.05,10.7093,528.03,42.236,518.05,139.427,508.05,309.725,498.03,478.297,488.03,465.388,478.03,354.524,468.03,214.999
540,10.3562,530,41.0567,520,136.545,510,305.208,500,483.503,490,483.77,480,382.891,470,239.656,540,10.4461,530,41.0414,520,137.338,510,307.354,500,484.8,490,484.977,480,384.011,470,240.937,540,10.6811,530,41.2462,520,137.532,510,307.029,500,481.273,490,480.938,480,380.845,470,239.067
541.94,10.0291,531.94,40.521,521.96,133.123,511.94,301.454,501.94,485.21,491.96,496.559,481.96,404.506,471.96,265.98,541.94,10.6695,531.94,40.0613,521.96,133.964,511.94,304.473,501.94,484.738,491.96,497.497,481.96,407.841,471.96,265.47,541.94,10.2441,531.94,40.3263,521.96,133.873,511.94,302.762,501.94,481.598,491.96,495.041,481.96,402.955,471.96,264.002
544.02,10.0828,534.02,39.0742,523.93,130.031,514.02,295.242,504.02,484.634,493.93,507.339,483.93,428.781,473.93,293.119,544.02,9.92938,534.02,38.875,523.93,130.927,514.02,298.97,504.02,484.819,493.93,508.83,483.93,428.772,473.93,293.653,544.02,10.0153,534.02,38.7592,523.93,129.562,514.02,296.675,504.02,481.931,493.93,505.406,483.93,426.306,473.93,291.67
545.97,9.49531,535.97,37.3849,526.06,126.212,515.97,290.594,505.97,481.415,496.06,515.117,486.06,448.634,476.06,317.405,545.97,9.69008,535.97,37.9918,526.06,127.275,515.97,293.0112,505.97,483.534,496.06,516.359,486.06,450.805,476.06,319.417,545.97,9.60231,535.97,38.0062,526.06,126.295,515.97,291.803,505.97,478.906,496.06,512.485,486.06,448.079,476.06,317.593
548.05,9.33987,538.05,36.0757,528.03,122.281,518.05,283.53,508.05,476.187,498.03,520.499,488.03,465.574,478.03,343.382,548.05,9.38282,538.05,36.5923,528.03,122.355,518.05,285.831,508.05,478.806,498.03,521.833,488.03,466.679,478.03,342.424,548.05,9.2321,538.05,36.2225,528.03,123.039,518.05,285.107,508.05,476.111,498.03,519.274,488.03,464.446,478.03,341.585
550,8.96192,540,34.9932,530,119.476,520,277.781,510,471.976,500,524.976,490,479.915,480,365.972,550,8.95965,540,34.9992,530,120.131,520,279.296,510,473.931,500,526.008,490,482.806,480,367.621,550,9.1452,540,35.2014,530,119.667,520,278.241,510,472.074,500,521.946,490,479.643,480,365.996
552.05,8.66313,541.94,33.9451,531.94,115.08,521.96,269.046,511.94,466.495,501.94,525.846,491.96,494.201,481.96,388.05,552.05,8.77171,541.94,33.9337,531.94,115.99,521.96,271.399,511.94,466.486,501.94,526.935,491.96,497.126,481.96,388.97,552.05,8.77505,541.94,34.0922,531.94,116.126,521.96,272.155,511.94,465.763,501.94,523.365,491.96,492.089,481.96,387.223
553.97,8.36736,544.02,32.7495,534.02,111.1,523.93,264.056,514.02,458.326,504.02,525.078,493.93,503.367,483.93,412.61,553.97,8.14615,544.02,33.2088,534.02,112.459,523.93,266.144,514.02,458.233,504.02,526.765,493.93,508.448,483.93,411.845,553.97,8.60498,544.02,32.7182,534.02,112.192,523.93,264.723,514.02,457.536,504.02,524.1,493.93,502.966,483.93,409.723
556.02,8.08182,545.97,31.4774,535.97,107.868,526.06,256.01,515.97,448.453,505.97,522.608,496.06,513.3,486.06,431.467,556.02,8.03175,545.97,31.7276,535.97,109.04,526.06,257.807,515.97,450.356,505.97,523.928,496.06,515.571,486.06,431.404,556.02,8.35326,545.97,31.7639,535.97,108.501,526.06,257.238,515.97,448.724,505.97,520.531,496.06,512.05,486.06,431.34
557.94,7.63448,548.05,30.3211,538.05,104.067,528.03,248.047,518.05,438.803,508.05,518.339,498.03,518.602,488.03,448.486,557.94,7.73776,548.05,30.7807,538.05,104.41,528.03,250.533,518.05,439.326,508.05,519.21,498.03,521.171,488.03,449.067,557.94,8.10093,548.05,30.6794,538.05,104.641,528.03,249.426,518.05,437.399,508.05,517.115,498.03,518.99,488.03,446.194
560,7.38132,550,29.2668,540,101.288,530,241.523,520,428.073,510,512.32,500,521.462,490,461.8,560,7.66574,550,29.705,540,100.991,530,243.598,520,428.979,510,512.659,500,523.504,490,462.987,560,7.59266,550,29.4922,540,101.245,530,242.108,520,427.765,510,511.21,500,519.928,490,461.364
561.94,7.22596,552.05,28.1876,541.94,96.3861,531.94,232.923,521.96,416.82,511.94,504.065,501.94,523.803,491.96,474.942,561.94,7.37187,552.05,28.4367,541.94,97.8273,531.94,234.482,521.96,418.671,511.94,506.085,501.94,523.63,491.96,475.866,561.94,7.59544,552.05,28.3089,541.94,97.0787,531.94,234.225,521.96,417.579,511.94,503.359,501.94,522.768,491.96,475.562
564.02,7.27373,553.97,27.5334,544.02,92.7395,534.02,225.113,523.93,406.098,514.02,495.48,504.02,522.759,493.93,485.383,564.02,7.18224,553.97,27.4934,544.02,93.74,534.02,226.507,523.93,408.092,514.02,497.472,504.02,524.647,493.93,486.196,564.02,7.02429,553.97,27.5298,544.02,93.4909,534.02,226.378,523.93,406.701,514.02,493.855,504.02,522.628,493.93,483.822
565.97,6.75486,556.02,26.3927,545.97,88.6564,535.97,216.791,526.06,393.344,515.97,486.816,505.97,520.307,496.06,494.347,565.97,6.86284,556.02,26.4898,545.97,89.9908,535.97,219.57,526.06,395.835,515.97,488.145,505.97,521.321,496.06,494.618,565.97,6.88747,556.02,26.6706,545.97,90.2481,535.97,218.161,526.06,393.901,515.97,484.551,505.97,518.894,496.06,490.736
568.05,6.47466,557.94,25.2851,548.05,85.4339,538.05,207.969,528.03,382.747,518.05,475.569,508.05,514.917,498.03,500.559,568.05,6.62252,557.94,25.5358,548.05,86.3389,538.05,210.967,528.03,384.631,518.05,477.13,508.05,519.217,498.03,498.99,568.05,6.65478,557.94,25.5637,548.05,86.5144,538.05,210.062,528.03,382.412,518.05,474.445,508.05,515.07,498.03,497.05
570,6.31606,560,24.4189,550,82.7562,540,201.727,530,369.552,520,463.109,510,509.584,500,501.971,570,6.32414,560,24.6364,550,83.5562,540,203.192,530,373.041,520,464.793,510,512.925,500,502.536,570,6.29979,560,24.4249,550,82.7215,540,202.658,530,370.828,520,462.979,510,510.849,500,500
572.05,6.29459,561.94,23.8874,552.05,79.0127,541.94,194.574,531.94,358.526,521.96,451.501,511.94,501.79,501.94,501.362,572.05,6.31035,561.94,23.9471,552.05,79.8158,541.94,196.137,531.94,359.378,521.96,452.639,511.94,505.749,501.94,502.256,572.05,6.27698,561.94,23.9018,552.05,79.826,541.94,194.414,531.94,358.115,521.96,451.499,511.94,502.671,501.94,501.22
573.97,6.1582,564.02,22.8665,553.97,76.9119,544.02,185.794,534.02,346.054,523.93,439.169,514.02,494.309,504.02,502.796,573.97,6.1377,564.02,22.7602,553.97,76.7419,544.02,187.409,534.02,348.369,523.93,440.47,514.02,497.412,504.02,505.869,573.97,6.02773,564.02,22.755,553.97,77.2655,544.02,186.366,534.02,346.332,523.93,440.09,514.02,493.929,504.02,501.228
576.02,6.03508,565.97,21.8373,556.02,73.3162,545.97,177.575,535.97,333.458,526.06,426.151,515.97,484.423,505.97,500.988,576.02,6.09616,565.97,22.1982,556.02,73.9538,545.97,180.392,535.97,334.552,526.06,427.039,515.97,487.648,505.97,502.104,576.02,5.81527,565.97,22.1329,556.02,74.2914,545.97,178.991,535.97,335.371,526.06,426.536,515.97,483.949,505.97,500.094
577.94,5.62063,568.05,21.0352,557.94,70.4438,548.05,171.147,538.05,319.688,528.03,413.981,518.05,473.551,508.05,497.066,577.94,5.90588,568.05,21.0482,557.94,70.915,548.05,172.421,538.05,321.168,528.03,415.211,518.05,474.18,508.05,499.488,577.94,5.70002,568.05,21.1176,557.94,70.3734,548.05,172.127,538.05,320.963,528.03,412.674,518.05,472.797,508.05,495.943
580,5.60281,570,20.2614,560,67.6647,550,163.414,540,308.558,530,400.4,520,462.352,510,490.771,580,5.6016,570,20.515,560,68.0155,550,165.932,540,308.743,530,401.681,520,464.905,510,490.858,580,5.60843,570,20.355,560,67.8303,550,165.537,540,308.54,530,401.057,520,462.265,510,489.454
582.05,5.36254,572.05,19.7231,561.94,64.4555,552.05,156.729,541.94,296.028,531.94,386.845,521.96,448.553,511.94,484.112,582.05,5.35401,572.05,19.556,561.94,65.1024,552.05,158.049,541.94,296.849,531.94,388.278,521.96,452.016,511.94,487.209,582.05,5.40334,572.05,19.5852,561.94,64.6625,552.05,157.899,541.94,295.584,531.94,385.631,521.96,448.615,511.94,482.032
583.97,5.22097,573.97,18.895,564.02,61.8722,553.97,150.616,544.02,283.4,534.02,372.533,523.93,438.284,514.02,476.732,583.97,5.38883,573.97,19.236,564.02,62.5778,553.97,151.746,544.02,284.234,534.02,374.279,523.93,439.88,514.02,477.533,583.97,5.07189,573.97,19.1082,564.02,61.9781,553.97,152.038,544.02,283.545,534.02,372.825,523.93,438.932,514.02,476.112
586.02,4.96395,576.02,18.3024,565.97,59.3375,556.02,143.785,545.97,270.96,535.97,360.714,526.06,425.102,515.97,466.7,586.02,4.98367,576.02,18.3248,565.97,60.216,556.02,144.715,545.97,272.187,535.97,361.228,526.06,427.156,515.97,468.582,586.02,4.88835,576.02,18.3847,565.97,60.0993,556.02,144.882,545.97,270.605,535.97,359.589,526.06,426.706,515.97,465.763
587.94,4.91198,577.94,17.7207,568.05,57.2959,557.94,137.798,548.05,260.429,538.05,346.066,528.03,411.187,518.05,456.519,587.94,4.85428,577.94,17.8131,568.05,57.6769,557.94,139.274,548.05,261.622,538.05,347.424,528.03,414.698,518.05,456.172,587.94,4.95354,577.94,17.6761,568.05,57.8019,557.94,139.041,548.05,260.37,538.05,345.931,528.03,413.779,518.05,455.053
590,4.79872,580,17.0899,570,54.7623,560,131.464,550,249.356,540,332.36,530,398.029,520,445.669,590,4.85629,580,17.2688,570,54.9702,560,133.141,550,249.844,540,333.77,530,401.058,520,446.424,590,4.81377,580,17.1983,570,55.1494,560,133.102,550,248.533,540,332.417,530,400.487,520,443.28
592.05,4.73316,582.05,16.4146,572.05,52.3441,561.94,126.613,552.05,237.814,541.94,318.658,531.94,386.888,521.96,433.293,592.05,4.82299,582.05,16.5887,572.05,52.8932,561.94,127.92,552.05,238.011,541.94,320.443,531.94,387.029,521.96,434.177,592.05,4.58929,582.05,16.4812,572.05,52.6045,561.94,127.215,552.05,237.556,541.94,319.881,531.94,385.871,521.96,433.406
593.97,4.66084,583.97,15.6522,573.97,50.3342,564.02,121.094,553.97,227.815,544.02,305.031,534.02,372.612,523.93,423.405,593.97,4.70545,583.97,15.9496,573.97,50.9147,564.02,121.65,553.97,229.582,544.02,306.18,534.02,373.534,523.93,424.882,593.97,4.50356,583.97,16.1111,573.97,50.7629,564.02,121.392,553.97,228.631,544.02,305.598,534.02,371.975,523.93,421.619
596.02,4.60429,586.02,15.3988,576.02,48.4648,565.97,115.488,556.02,217.582,545.97,291.773,535.97,359.743,526.06,411.373,596.02,4.40726,586.02,15.497,576.02,48.9805,565.97,116.913,556.02,219.17,545.97,293.071,535.97,359.613,526.06,411.144,596.02,4.38567,586.02,15.2317,576.02,48.9201,565.97,116.696,556.02,217.219,545.97,290.36,535.97,359.457,526.06,408.505
597.94,4.24581,587.94,14.8598,577.94,46.1757,568.05,110.316,557.94,209.09,548.05,280.342,538.05,345.215,528.03,396.859,597.94,4.36385,587.94,15.1588,577.94,47.0524,568.05,111.815,557.94,209.545,548.05,280.711,538.05,346.736,528.03,397.683,597.94,4.32714,587.94,14.7957,577.94,46.9966,568.05,111.417,557.94,207.793,548.05,280.477,538.05,343.892,528.03,398.045
600,4.04212,590,14.5142,580,45.0049,570,105.568,560,198.17,550,267.732,540,331.704,530,385.28,600,4.15302,590,14.5192,580,44.8868,570,106.742,560,198.933,550,269.828,540,334.892,530,386.286,600,4.29034,590,14.1598,580,45.0649,570,105.811,560,198.329,550,268.014,540,331.786,530,384.134
602.05,4.06194,592.05,13.9209,582.05,43.6726,572.05,101.076,561.94,190.611,552.05,255.28,541.94,319.157,531.94,371.152,602.05,4.06269,592.05,13.8848,582.05,43.4487,572.05,101.195,561.94,191.712,552.05,256.08,541.94,319.146,531.94,374.346,602.05,3.91105,592.05,14.0371,582.05,43.5665,572.05,101.485,561.94,189.941,552.05,255.64,541.94,318.095,531.94,370.698
603.97,3.93041,593.97,13.4453,583.97,41.4737,573.97,96.3487,564.02,180.378,553.97,244.824,544.02,304.537,534.02,357.416,603.97,4.07362,593.97,13.5222,583.97,41.6265,573.97,97.7807,564.02,181.298,553.97,246.071,544.02,305.097,534.02,359.549,603.97,3.92682,593.97,13.5194,583.97,41.5622,573.97,97.283,564.02,181.186,553.97,245.681,544.02,306.047,534.02,357.798
606.02,3.87732,596.02,13.0502,586.02,39.8409,576.02,92.3495,565.97,173.562,556.02,233.751,545.97,290.252,535.97,347.214,606.02,3.81294,596.02,12.9967,586.02,40.1283,576.02,92.7066,565.97,173.329,556.02,235.629,545.97,291.52,535.97,348.796,606.02,3.85884,596.02,13.0226,586.02,40.0011,576.02,92.9488,565.97,172.702,556.02,234.081,545.97,292.556,535.97,345.364
607.94,3.51591,597.94,12.4212,587.94,38.2333,577.94,88.298,568.05,164.291,557.94,222.655,548.05,280.315,538.05,332.942,607.94,3.64759,597.94,12.5988,587.94,38.9132,577.94,89.3655,568.05,165.07,557.94,224.79,548.05,282.284,538.05,334.223,607.94,3.64563,597.94,12.466,587.94,38.7124,577.94,89.4389,568.05,164.12,557.94,223.416,548.05,280.536,538.05,332.147
610,3.53145,600,12.0115,590,37.0188,580,84.9078,570,155.829,560,212.634,550,268.177,540,320.961,610,3.64234,600,12.0271,590,37.3926,580,85.2471,570,157.691,560,214.435,550,268.687,540,320.487,610,3.59834,600,12.1878,590,37.2643,580,85.2924,570,157.164,560,213.038,550,269.429,540,319.918
612.05,3.53681,602.05,11.6912,592.05,35.8985,582.05,80.9433,572.05,149.156,561.94,204.358,552.05,255.434,541.94,306.706,612.05,3.38375,602.05,11.8423,592.05,35.8899,582.05,81.9588,572.05,150.501,561.94,205.049,552.05,258.673,541.94,308.016,612.05,3.54439,602.05,11.8261,592.05,35.6899,582.05,81.8393,572.05,150.082,561.94,204.251,552.05,256.002,541.94,307.964
613.97,3.31162,603.97,11.2581,593.97,34.2493,583.97,77.6351,573.97,142.955,564.02,193.171,553.97,244.862,544.02,293.524,613.97,3.54335,603.97,11.4671,593.97,34.3124,583.97,78.4408,573.97,144.177,564.02,193.753,553.97,246.363,544.02,295.979,613.97,3.42886,603.97,11.3443,593.97,34.2466,583.97,77.7287,573.97,142.918,564.02,193.832,553.97,245.887,544.02,293.513
616.02,3.31779,606.02,11.0097,596.02,32.7319,586.02,74.3691,576.02,136.76,565.97,185.942,556.02,233.602,545.97,280.768,616.02,3.39928,606.02,11.1456,596.02,33.4032,586.02,75.0702,576.02,136.972,565.97,186.069,556.02,235.977,545.97,283.287,616.02,3.32327,606.02,10.9478,596.02,32.7518,586.02,75.2445,576.02,135.8,565.97,185.014,556.02,234.743,545.97,282.539
617.94,3.07331,607.94,10.6362,597.94,31.7911,587.94,71.5775,577.94,129.847,568.05,176.177,557.94,224.011,548.05,270.074,617.94,3.21995,607.94,10.7963,597.94,31.8599,587.94,72.0781,577.94,130.488,568.05,176.926,557.94,225.763,548.05,270.745,617.94,3.26762,607.94,10.5617,597.94,31.5517,587.94,71.6924,577.94,130.587,568.05,175.703,557.94,223.512,548.05,270.198
620,3.20308,610,10.4024,600,30.5981,590,67.8462,580,123.494,570,167.891,560,212.741,550,259.119,620,3.24508,610,10.4686,600,30.4285,590,68.898,580,125.833,570,167.723,560,213.79,550,260.468,620,3.07207,610,10.2347,600,30.74,590,69.3016,580,123.726,570,167.064,560,213.499,550,259.079
622.02,2.88375,612.05,10.1093,602.05,29.4623,592.05,65.4498,582.05,119.084,572.05,158.789,561.94,204.148,552.05,246.36,622.02,2.93996,612.05,10.0528,602.05,29.8561,592.05,66.5946,582.05,119.598,572.05,159.733,561.94,204.904,552.05,248.042,622.02,2.91323,612.05,9.85478,602.05,29.4471,592.05,65.8802,582.05,118.872,572.05,159.252,561.94,204.889,552.05,245.786
624.05,2.77338,613.97,9.63818,603.97,28.4229,593.97,62.7572,583.97,113.331,573.97,152.553,564.02,193.986,553.97,236.962,624.05,3.02715,613.97,9.64965,603.97,28.9068,593.97,63.3639,583.97,113.801,573.97,153.872,564.02,193.65,553.97,237.746,624.05,2.99656,613.97,9.47059,603.97,28.3036,593.97,63.3245,583.97,113.913,573.97,153.058,564.02,194.366,553.97,236.893
625.94,2.73487,616.02,9.29419,606.02,27.1729,596.02,60.2939,586.02,107.995,576.02,145.627,565.97,184.942,556.02,225.692,625.94,2.82984,616.02,9.41284,606.02,27.4615,596.02,60.2589,586.02,109.299,576.02,146.033,565.97,185.577,556.02,228.08,625.94,2.90413,616.02,9.3415,606.02,27.1722,596.02,60.9129,586.02,108.554,576.02,145.186,565.97,185.638,556.02,225.5
627.97,2.75575,617.94,8.6803,607.94,26.3186,597.94,57.2676,587.94,104.411,577.94,138.435,568.05,176.414,557.94,216.775,627.97,2.74783,617.94,8.96057,607.94,26.5857,597.94,58.2409,587.94,104.41,577.94,138.786,568.05,177.614,557.94,216.1,627.97,2.80165,617.94,8.87121,607.94,26.3323,597.94,58.122,587.94,103.913,577.94,139.3125,568.05,176.993,557.94,215.265
630,2.65751,620,9.00539,610,25.0889,600,55.4194,590,99.8349,580,132.086,570,168.324,560,205.673,630,2.55603,620,8.67703,610,25.3977,600,55.7069,590,99.8611,580,132.541,570,168.753,560,207.195,630,2.71804,620,8.77485,610,25.4042,600,56.0387,590,99.4975,580,132.321,570,168.021,560,205.95
632.05,2.44928,622.02,8.21384,612.05,24.4359,602.05,53.214,592.05,95.0386,582.05,126.127,572.05,159.615,561.94,197.377,632.05,2.70949,622.02,8.41205,612.05,24.3915,602.05,53.5919,592.05,94.5589,582.05,126.883,572.05,161.007,561.94,197.697,632.05,2.60557,622.02,8.37522,612.05,24.3389,602.05,53.2578,592.05,94.3036,582.05,126.01,572.05,159.371,561.94,197.86
633.97,2.51472,624.05,8.0632,613.97,23.5116,603.97,51.1662,593.97,90.9303,583.97,120.352,573.97,153.184,564.02,187.178,633.97,2.30336,624.05,8.18229,613.97,23.8065,603.97,51.8304,593.97,91.2734,583.97,120.469,573.97,154.076,564.02,187.652,633.97,2.54748,624.05,8.02217,613.97,23.622,603.97,51.3935,593.97,91.098,583.97,120.607,573.97,152.427,564.02,187.043
636.02,2.46492,625.94,7.82911,616.02,22.7927,606.02,48.8969,596.02,86.5397,586.02,115.269,576.02,146.637,565.97,179.037,636.02,2.40893,625.94,7.96189,616.02,23.0344,606.02,49.8917,596.02,87.1726,586.02,115.505,576.02,145.636,565.97,179.501,636.02,2.35871,625.94,7.76169,616.02,22.797,606.02,49.3369,596.02,87.0355,586.02,115.87,576.02,145.924,565.97,178.384
637.94,2.24082,627.97,7.6176,617.94,21.7903,607.94,46.937,597.94,82.4786,587.94,110.175,577.94,139.086,568.05,170.978,637.94,2.30506,627.97,7.61127,617.94,22.0314,607.94,47.5259,597.94,83.0257,587.94,110.676,577.94,140.161,568.05,172.414,637.94,2.27729,627.97,7.53911,617.94,21.6572,607.94,47.432,597.94,82.5074,587.94,110.204,577.94,138.688,568.05,170.457
640,2.14346,630,7.17263,620,20.9403,610,44.7166,600,79.7199,590,104.928,580,132.246,570,162.953,640,2.31484,630,7.42686,620,21.2444,610,45.5233,600,80.1641,590,105.48,580,134.002,570,162.238,640,2.09368,630,7.29982,620,20.8624,610,45.3709,600,79.4066,590,105.314,580,132.461,570,162.358
642.02,2.1806,632.05,6.99736,622.02,19.9905,612.05,43.4701,602.05,76.1205,592.05,100.419,582.05,125.994,572.05,155.167,642.02,2.06543,632.05,6.80891,622.02,20.303,612.05,43.883,602.05,76.5072,592.05,101.163,582.05,127.115,572.05,156.086,642.02,2.12477,632.05,7.01141,622.02,20.0627,612.05,43.495,602.05,75.6802,592.05,100.427,582.05,127.431,572.05,154.131
644.05,2.10053,633.97,6.77692,624.05,19.3813,613.97,41.949,603.97,72.7283,593.97,95.9075,583.97,120.833,573.97,149.754,644.05,2.094,633.97,6.87637,624.05,19.4107,613.97,42.0768,603.97,73.6185,593.97,96.39,583.97,121.419,573.97,148.424,644.05,2.20341,633.97,6.70836,624.05,19.1925,613.97,41.886,603.97,72.9357,593.97,96.3756,583.97,119.994,573.97,147.968
645.94,1.97241,636.02,6.53365,625.94,18.8532,616.02,39.8738,606.02,70.0724,596.02,91.3063,586.02,115.531,576.02,141.606,645.94,1.96689,636.02,6.43667,625.94,18.8103,616.02,40.4555,606.02,70.3013,596.02,91.9332,586.02,116.349,576.02,141.324,645.94,2.09018,636.02,6.43666,625.94,18.8291,616.02,40.1214,606.02,69.656,596.02,92.2472,586.02,115.548,576.02,141.287
647.97,1.81379,637.94,6.29423,627.97,17.958,617.94,38.2313,607.94,67.0636,597.94,87.2402,587.94,111.182,577.94,134.424,647.97,1.83886,637.94,6.18063,627.97,18.0185,617.94,38.754,607.94,67.3053,597.94,87.443,587.94,111.588,577.94,135.428,647.97,1.86161,637.94,6.18344,627.97,17.853,617.94,38.5577,607.94,67.2011,597.94,87.3043,587.94,110.772,577.94,134.41
650,1.8303,640,5.96918,630,16.9979,620,36.6926,610,63.9194,600,83.6983,590,105.379,580,128.97,650,1.87697,640,6.03125,630,17.3382,620,37.2387,610,64.2245,600,84.1212,590,105.792,580,128.371,650,1.8165,640,6.04466,630,17.2031,620,37.2803,610,64.075,600,84.2109,590,105.63,580,128.073
652.02,1.71976,642.02,5.78388,632.05,16.4391,622.02,35.0473,612.05,61.1034,602.05,79.5202,592.05,100.62,582.05,122.967,652.02,1.71478,642.02,5.85937,632.05,16.5103,622.02,35.4016,612.05,61.2315,602.05,80.1168,592.05,101.261,582.05,123.079,652.02,1.73284,642.02,5.69796,632.05,16.6017,622.02,35.3694,612.05,60.8835,602.05,79.7019,592.05,100.367,582.05,121.939
654.05,1.62753,644.05,5.58983,633.97,15.8307,624.05,33.996,613.97,58.5454,603.97,76.6665,593.97,96.5706,583.97,116.987,654.05,1.63739,644.05,5.6515,633.97,16.1238,624.05,34.1723,613.97,58.5291,603.97,77.2433,593.97,97.2369,583.97,118.306,654.05,1.6324,644.05,5.5244,633.97,16.029,624.05,33.684,613.97,58.7939,603.97,77.0001,593.97,96.8374,583.97,117.215
655.94,1.6516,645.94,5.35025,636.02,15.4558,625.94,32.2088,616.02,55.8543,606.02,73.7796,596.02,92.4805,586.02,111.85,655.94,1.63686,645.94,5.49347,636.02,15.4938,625.94,32.7598,616.02,56.5418,606.02,73.5495,596.02,92.5482,586.02,112.393,655.94,1.65189,645.94,5.42613,636.02,15.4124,625.94,32.3542,616.02,55.9351,606.02,73.3724,596.02,91.8908,586.02,112.262
657.97,1.42044,647.97,5.17441,637.94,14.7712,627.97,31.0243,617.94,53.9121,607.94,70.5553,597.94,88.3782,587.94,108.131,657.97,1.71853,647.97,5.18625,637.94,14.9713,627.97,31.4271,617.94,54.4316,607.94,70.9377,597.94,88.6765,587.94,108.681,657.97,1.67452,647.97,5.156,637.94,14.5956,627.97,31.8041,617.94,53.9857,607.94,69.8799,597.94,88.1961,587.94,107.181
660,1.5383,650,4.86475,640,13.9606,630,30.0459,620,51.6809,610,66.8597,600,83.4193,590,102.511,660,1.54464,650,5.05363,640,14.3495,630,30.136,620,51.5365,610,67.0859,600,84.5866,590,102.23,660,1.61565,650,4.86825,640,14.0978,630,30.159,620,51.001,610,67.3546,600,84.7293,590,102.521
662,1.51161,652.02,4.58832,642.02,13.5523,632.05,28.5553,622.02,49.0912,612.05,63.9333,602.05,80.4389,592.05,97.4933,662,1.55348,652.02,4.86309,642.02,13.6921,632.05,28.9205,622.02,49.2252,612.05,64.811,602.05,80.4742,592.05,98.8291,662,1.528,652.02,4.92919,642.02,13.7663,632.05,28.9449,622.02,48.8051,612.05,63.8568,602.05,79.9843,592.05,97.7881
664,1.38981,654.05,4.57869,644.05,12.927,633.97,27.5701,624.05,46.721,613.97,61.6674,603.97,77.9887,593.97,93.1044,664,1.48275,654.05,4.52465,644.05,13.1544,633.97,27.6848,624.05,47.2469,613.97,62.1141,603.97,77.004,593.97,94.2638,664,1.37794,654.05,4.67937,644.05,13.0749,633.97,28.0253,624.05,47.1979,613.97,61.6847,603.97,76.823,593.97,94.0245
666,1.27902,655.94,4.39638,645.94,12.5658,636.02,26.3735,625.94,45.0109,616.02,59.097,606.02,74.047,596.02,89.3747,666,1.37147,655.94,4.53318,645.94,12.7636,636.02,26.3776,625.94,45.0544,616.02,59.176,606.02,74.8817,596.02,90.2565,666,1.19352,655.94,4.59744,645.94,12.609,636.02,26.5786,625.94,45.1426,616.02,59.0627,606.02,74.4148,596.02,88.9768
668,1.31875,657.97,4.2794,647.97,12.0421,637.94,25.3711,627.97,43.0936,617.94,56.266,607.94,71.2434,597.94,85.1372,668,1.26926,657.97,4.43389,647.97,12.097,637.94,25.2911,627.97,43.2415,617.94,56.8687,607.94,71.5178,597.94,85.9857,668,1.31869,657.97,4.20373,647.97,12.1466,637.94,25.5449,627.97,43.0782,617.94,56.5526,607.94,70.7589,597.94,85.0892
670,1.20691,660,3.99611,650,11.7353,640,24.3895,630,41.0997,620,53.9491,610,67.9206,600,81.8676,670,1.18905,660,4.0504,650,11.7205,640,24.5426,630,41.4779,620,54.256,610,68.1727,600,82.4119,670,1.29479,660,4.13,650,11.6237,640,24.5406,630,41.3399,620,54.0908,610,67.5088,600,82.2462
672.02,1.22284,662,4.04113,652.02,11.0345,642.02,23.3911,632.05,39.3875,622.02,51.3014,612.05,64.8733,602.05,78.3679,672.02,1.29001,662,3.90114,652.02,11.3613,642.02,23.959,632.05,39.378,622.02,51.5401,612.05,64.9718,602.05,78.5114,672.02,1.15399,662,4.06587,652.02,11.1356,642.02,23.6278,632.05,39.5144,622.02,51.4689,612.05,64.5092,602.05,78.2421
674.05,1.23123,664,3.79701,654.05,10.4231,644.05,22.1335,633.97,38.0015,624.05,49.1388,613.97,62.1874,603.97,75.8964,674.05,1.15513,664,3.88303,654.05,10.5688,644.05,22.7515,633.97,38.4428,624.05,49.1841,613.97,62.3392,603.97,75.7817,674.05,1.1676,664,3.74573,654.05,10.665,644.05,22.3972,633.97,37.7958,624.05,48.8626,613.97,62.4953,603.97,75.3086
675.94,1.26994,666,3.65757,655.94,10.1953,645.94,21.2293,636.02,36.5068,625.94,46.6806,616.02,59.7065,606.02,71.9847,675.94,1.16271,666,3.8331,655.94,10.1782,645.94,21.5769,636.02,36.3045,625.94,47.3787,616.02,59.7416,606.02,72.3851,675.94,1.0775,666,3.60955,655.94,10.2687,645.94,21.6969,636.02,36.3685,625.94,46.9698,616.02,59.3893,606.02,72.1207
677.97,1.2343,668,3.45257,657.97,9.90777,647.97,20.6966,637.94,34.5695,627.97,45.3723,617.94,56.5038,607.94,69.4478,677.97,1.05352,668,3.53136,657.97,10.073,647.97,20.6917,637.94,35.0353,627.97,45.2885,617.94,57.4754,607.94,69.4509,677.97,1.03176,668,3.55683,657.97,9.68377,647.97,20.8722,637.94,34.6797,627.97,45.2269,617.94,56.9524,607.94,68.9212
680,1.00851,670,3.48033,660,9.27392,650,19.6112,640,33.3121,630,42.6621,620,53.95,610,65.6549,680,1.10482,670,3.36531,660,9.68485,650,19.926,640,33.2635,630,42.935,620,54.8364,610,66.3411,680,1.00699,670,3.31679,660,9.34135,650,19.842,640,33.2242,630,42.852,620,54.3203,610,65.5705
682,1.08235,672.02,3.39061,662,9.06056,652.02,18.9828,642.02,31.9218,632.05,41.1591,622.02,52.0174,612.05,63.0522,682,1.02789,672.02,3.37448,662,9.03717,652.02,19.1261,642.02,32.401,632.05,41.26,622.02,52.0704,612.05,63.4647,682,1.04727,672.02,3.19238,662,8.99195,652.02,18.9277,642.02,31.9291,632.05,40.9973,622.02,51.8388,612.05,63.3956
684,1.03709,674.05,3.08979,664,8.55692,654.05,17.8829,644.05,30.5675,633.97,39.5855,624.05,49.8359,613.97,60.3466,684,0.937477,674.05,3.08513,664,8.6846,654.05,18.2375,644.05,30.6478,633.97,39.5702,624.05,50.0293,613.97,61.0811,684,1.00275,674.05,3.13228,664,8.82123,654.05,18.3459,644.05,30.4688,633.97,39.7351,624.05,49.5311,613.97,60.2124
686,0.978306,675.94,2.98586,666,8.35021,655.94,17.5304,645.94,29.3225,636.02,37.8217,625.94,47.5642,616.02,57.7052,686,0.939733,675.94,2.85471,666,8.37678,655.94,17.6984,645.94,29.2752,636.02,37.7333,625.94,47.8051,616.02,58.0349,686,0.923779,675.94,2.9351,666,8.36218,655.94,17.6093,645.94,29.3097,636.02,37.7337,625.94,47.3465,616.02,57.184
688,0.951656,677.97,2.90852,668,8.05957,657.97,16.6365,647.97,28.011,637.94,36.0081,627.97,46.04,617.94,55.1884,688,1.00734,677.97,2.82819,668,8.08309,657.97,16.6657,647.97,28.0933,637.94,36.0757,627.97,45.8172,617.94,55.9283,688,0.960885,677.97,2.76784,668,8.03879,657.97,16.9239,647.97,28.3064,637.94,36.1895,627.97,45.3283,617.94,55.5027
690,0.907591,680,2.70075,670,7.73963,660,16.0481,650,26.6594,640,34.4363,630,43.7015,620,52.786,690,0.911577,680,2.6789,670,7.82372,660,16.2515,650,26.8416,640,35.0617,630,43.7745,620,53.1419,690,0.986423,680,2.67369,670,7.63029,660,16.2177,650,26.6629,640,34.3975,630,43.51,620,53.6411
692,0.686291,682,2.61088,672.02,7.38164,662,15.2387,652.02,25.8068,642.02,33.0982,632.05,41.6871,622.02,50.5729,692,0.764847,682,2.59943,672.02,7.5148,662,15.2986,652.02,25.5935,642.02,33.4126,632.05,42.0176,622.02,50.8077,692,0.812616,682,2.55686,672.02,7.28956,662,15.2825,652.02,25.7484,642.02,33.2127,632.05,41.4016,622.02,51.0466
694,0.943726,684,2.57574,674.05,6.94072,664,14.5326,654.05,24.6689,644.05,31.6846,633.97,40.1658,624.05,48.3398,694,0.857104,684,2.5249,674.05,6.99804,664,14.8555,654.05,24.8977,644.05,31.7789,633.97,40.27528,624.05,48.0063,694,0.863558,684,2.51057,674.05,7.04116,664,14.9127,654.05,24.3847,644.05,31.6102,633.97,39.452,624.05,48.5832
696,0.895217,686,2.57782,675.94,6.62273,666,14.0689,655.94,23.548,645.94,30.3641,636.02,38.4194,625.94,46.1667,696,0.797305,686,2.56601,675.94,6.58678,666,14.2138,655.94,23.6699,645.94,30.6185,636.02,38.1767,625.94,46.2283,696,0.624319,686,2.47816,675.94,6.7402,666,14.0643,655.94,23.5077,645.94,30.2566,636.02,38.2051,625.94,46.3607
698,0.831235,688,2.46062,677.97,6.46274,668,13.2497,657.97,22.5165,647.97,28.9487,637.94,36.5574,627.97,44.6093,698,0.739567,688,2.5034,677.97,6.59402,668,13.5112,657.97,22.9244,647.97,28.9146,637.94,36.6598,627.97,45.1879,698,0.667067,688,2.41626,677.97,6.66186,668,13.5735,657.97,22.718,647.97,28.9894,637.94,36.7077,627.97,43.9412
700,0.739889,690,2.35466,680,6.09062,670,12.9023,660,21.7221,650,27.5586,640,34.6461,630,41.8722,700,0.796965,690,2.24432,680,6.34383,670,13.0387,660,21.5661,650,27.9087,640,35.3736,630,42.4909,700,0.872851,690,2.28965,680,6.30636,670,12.975,660,21.5667,650,27.6699,640,34.982,630,42.8151
,,692,2.30567,682,5.97444,672.02,12.2453,662,20.5547,652.02,26.7361,642.02,34.1351,632.05,39.9028,,,692,2.27116,682,6.015,672.02,12.4387,662,20.518,652.02,26.5242,642.02,33.4941,632.05,40.8253,,,692,2.23589,682,5.93085,672.02,12.3712,662,20.7025,652.02,26.6909,642.02,33.4861,632.05,40.5943
,,694,2.17488,684,5.78033,674.05,11.8101,664,19.6789,654.05,25.0758,644.05,31.9899,633.97,38.7976,,,694,2.19872,684,5.85281,674.05,11.9769,664,20.0319,654.05,25.4468,644.05,32.175,633.97,39.8388,,,694,2.16728,684,5.88573,674.05,11.7454,664,19.9093,654.05,25.3955,644.05,32.1853,633.97,38.5664
,,696,2.18046,686,5.58568,675.94,11.3615,666,19.0482,655.94,24.4205,645.94,30.8294,636.02,36.8946,,,696,2.06552,686,5.71451,675.94,11.2312,666,19.1551,655.94,24.5069,645.94,30.6448,636.02,38.093,,,696,2.11684,686,5.71214,675.94,11.2378,666,18.7495,655.94,24.4694,645.94,30.6721,636.02,37.7837
[...]
,,,,,,,,,,,,,,,,,,,,,,,,,,,,,,,,,,,,,,,,,,,,,,,
,,,,,,,,,,,,,,,,,,,,,,,,,,,,,,,,,,,,,,,,,,,,,,,
,,,,,,,,,,,,,,,,,,,,,,,,,,,,,,,,,,,,,,,,,,,,,,,
,,,,,,,,,,,,,,,,,,,,,,,,,,,,,,,,,,,,,,,,,,,,,,,
,,,,,,,,,,,,,,,,,,,,,,,,,,,,,,,,,,,,,,,,,,,,,,,
,,,,,,,,,,,,,,,,,,,,,,,,,,,,,,,,,,,,,,,,,,,,,,,
,,,,,,,,,,,,,,,,,,,,,,,,,,,,,,,,,,,,,,,,,,,,,,,
,,,,,,,,,,,,,,,,,,,,,,,,,,,,,,,,,,,,,,,,,,,,,,,
,,,,,,,,,,,,,,,,,,,,,,,,,,,,,,,,,,,,,,,,,,,,,,,
,,,,,,,,,,,,,,,,,,,,,,,,,,,,,,,,,,,,,,,,,,,,,,,
,,,,,,,,,,,,,,,,,,,,,,,,,,,,,,,,,,,,,,,,,,,,,,,
,,,,,,,,,,,,,,,,,,,,,,,,,,,,,,,,,,,,,,,,,,,,,,,
,,,,,,,,,,,,,,,,,,,,,,,,,,,,,,,,,,,,,,,,,,,,,,,
,,,,,,,,,,,,,,,,,,,,,,,,,,,,,,,,,,,,,,,,,,,,,,,
,,,,,,,,,,,,,,,,,,,,,,,,,,,,,,,,,,,,,,,,,,,,,,,
,,,,,,,,,,,,,,,,,,,,,,,,,,,,,,,,,,,,,,,,,,,,,,,
,,,,,,,,,,,,,,,,,,,,,,,,,,,,,,,,,,,,,,,,,,,,,,,
,,,,,,,,,,,,,,,,,,,,,,,,,,,,,,,,,,,,,,,,,,,,,,,
,,,,,,,,,,,,,,,,,,,,,,,,,,,,,,,,,,,,,,,,,,,,,,,
,,,,,,,,,,,,,,,,,,,,,,,,,,,,,,,,,,,,,,,,,,,,,,,
,,,,,,,,,,,,,,,,,,,,,,,,,,,,,,,,,,,,,,,,,,,,,,,
,,,,,,,,,,,,,,,,,,,,,,,,,,,,,,,,,,,,,,,,,,,,,,,
,,,,,,,,,,,,,,,,,,,,,,,,,,,,,,,,,,,,,,,,,,,,,,,
,,,,,,,,,,,,,,,,,,,,,,,,,,,,,,,,,,,,,,,,,,,,,,,
,,,,,,,,,,,,,,,,,,,,,,,,,,,,,,,,,,,,,,,,,,,,,,,
 New:ON,,,,,,,,,,,,,,,,,,,,,,,,,,,,,,,,,,,,,,,,,,,,,,,
 New: 500.00,,,,,,,,,,,,,,,,,,,,,,,,,,,,,,,,,,,,,,,,,,,,,,,
 New:   0.15,,,,,,,,,,,,,,,,,,,,,,,,,,,,,,,,,,,,,,,,,,,,,,,
 New:Slow,,,,,,,,,,,,,,,,,,,,,,,,,,,,,,,,,,,,,,,,,,,,,,,
 New:0.50000,,,,,,,,,,,,,,,,,,,,,,,,,,,,,,,,,,,,,,,,,,,,,,,
 New: 500.00,,,,,,,,,,,,,,,,,,,,,,,,,,,,,,,,,,,,,,,,,,,,,,,
 New: 510.00,,,,,,,,,,,,,,,,,,,,,,,,,,,,,,,,,,,,,,,,,,,,,,,
 New: 700.00,,,,,,,,,,,,,,,,,,,,,,,,,,,,,,,,,,,,,,,,,,,,,,,
 New: 490.00,,,,,,,,,,,,,,,,,,,,,,,,,,,,,,,,,,,,,,,,,,,,,,,
 New: 500.00,,,,,,,,,,,,,,,,,,,,,,,,,,,,,,,,,,,,,,,,,,,,,,,
 New: 480.00,,,,,,,,,,,,,,,,,,,,,,,,,,,,,,,,,,,,,,,,,,,,,,,
 New: 490.00,,,,,,,,,,,,,,,,,,,,,,,,,,,,,,,,,,,,,,,,,,,,,,,
 New: 470.00,,,,,,,,,,,,,,,,,,,,,,,,,,,,,,,,,,,,,,,,,,,,,,,
 New: 480.00,,,,,,,,,,,,,,,,,,,,,,,,,,,,,,,,,,,,,,,,,,,,,,,
 New: 460.00,,,,,,,,,,,,,,,,,,,,,,,,,,,,,,,,,,,,,,,,,,,,,,,
 New: 470.00,,,,,,,,,,,,,,,,,,,,,,,,,,,,,,,,,,,,,,,,,,,,,,,
 New: 450.00,,,,,,,,,,,,,,,,,,,,,,,,,,,,,,,,,,,,,,,,,,,,,,,
 New: 460.00,,,,,,,,,,,,,,,,,,,,,,,,,,,,,,,,,,,,,,,,,,,,,,,
 New: 440.00,,,,,,,,,,,,,,,,,,,,,,,,,,,,,,,,,,,,,,,,,,,,,,,
 New: 450.00,,,,,,,,,,,,,,,,,,,,,,,,,,,,,,,,,,,,,,,,,,,,,,,
 New: 430.00,,,,,,,,,,,,,,,,,,,,,,,,,,,,,,,,,,,,,,,,,,,,,,,
 New: 440.00,,,,,,,,,,,,,,,,,,,,,,,,,,,,,,,,,,,,,,,,,,,,,,,
 New: 420.00,,,,,,,,,,,,,,,,,,,,,,,,,,,,,,,,,,,,,,,,,,,,,,,
 New: 430.00,,,,,,,,,,,,,,,,,,,,,,,,,,,,,,,,,,,,,,,,,,,,,,,
 New: 410.00,,,,,,,,,,,,,,,,,,,,,,,,,,,,,,,,,,,,,,,,,,,,,,,
 New: 420.00,,,,,,,,,,,,,,,,,,,,,,,,,,,,,,,,,,,,,,,,,,,,,,,
 New: 400.00,,,,,,,,,,,,,,,,,,,,,,,,,,,,,,,,,,,,,,,,,,,,,,,
 New: 410.00,,,,,,,,,,,,,,,,,,,,,,,,,,,,,,,,,,,,,,,,,,,,,,,
 New: 480.00,,,,,,,,,,,,,,,,,,,,,,,,,,,,,,,,,,,,,,,,,,,,,,,
 New: 490.00,,,,,,,,,,,,,,,,,,,,,,,,,,,,,,,,,,,,,,,,,,,,,,,
 New: 470.00,,,,,,,,,,,,,,,,,,,,,,,,,,,,,,,,,,,,,,,,,,,,,,,
 New: 480.00,,,,,,,,,,,,,,,,,,,,,,,,,,,,,,,,,,,,,,,,,,,,,,,
 New: 460.00,,,,,,,,,,,,,,,,,,,,,,,,,,,,,,,,,,,,,,,,,,,,,,,
 New: 470.00,,,,,,,,,,,,,,,,,,,,,,,,,,,,,,,,,,,,,,,,,,,,,,,
 New: 450.00,,,,,,,,,,,,,,,,,,,,,,,,,,,,,,,,,,,,,,,,,,,,,,,
 New: 460.00,,,,,,,,,,,,,,,,,,,,,,,,,,,,,,,,,,,,,,,,,,,,,,,
 New: 440.00,,,,,,,,,,,,,,,,,,,,,,,,,,,,,,,,,,,,,,,,,,,,,,,
 New: 450.00,,,,,,,,,,,,,,,,,,,,,,,,,,,,,,,,,,,,,,,,,,,,,,,
 New: 430.00,,,,,,,,,,,,,,,,,,,,,,,,,,,,,,,,,,,,,,,,,,,,,,,
 New: 440.00,,,,,,,,,,,,,,,,,,,,,,,,,,,,,,,,,,,,,,,,,,,,,,,
 New: 420.00,,,,,,,,,,,,,,,,,,,,,,,,,,,,,,,,,,,,,,,,,,,,,,,
 New: 430.00,,,,,,,,,,,,,,,,,,,,,,,,,,,,,,,,,,,,,,,,,,,,,,,
 New: 410.00,,,,,,,,,,,,,,,,,,,,,,,,,,,,,,,,,,,,,,,,,,,,,,,
 New: 420.00,,,,,,,,,,,,,,,,,,,,,,,,,,,,,,,,,,,,,,,,,,,,,,,
 New: 400.00,,,,,,,,,,,,,,,,,,,,,,,,,,,,,,,,,,,,,,,,,,,,,,,
 New: 410.00,,,,,,,,,,,,,,,,,,,,,,,,,,,,,,,,,,,,,,,,,,,,,,,
 New: 480.00,,,,,,,,,,,,,,,,,,,,,,,,,,,,,,,,,,,,,,,,,,,,,,,
 New: 490.00,,,,,,,,,,,,,,,,,,,,,,,,,,,,,,,,,,,,,,,,,,,,,,,
 New: 470.00,,,,,,,,,,,,,,,,,,,,,,,,,,,,,,,,,,,,,,,,,,,,,,,
 New: 480.00,,,,,,,,,,,,,,,,,,,,,,,,,,,,,,,,,,,,,,,,,,,,,,,
 New: 460.00,,,,,,,,,,,,,,,,,,,,,,,,,,,,,,,,,,,,,,,,,,,,,,,
 New: 470.00,,,,,,,,,,,,,,,,,,,,,,,,,,,,,,,,,,,,,,,,,,,,,,,
 New: 450.00,,,,,,,,,,,,,,,,,,,,,,,,,,,,,,,,,,,,,,,,,,,,,,,
 New: 460.00,,,,,,,,,,,,,,,,,,,,,,,,,,,,,,,,,,,,,,,,,,,,,,,
 New: 440.00,,,,,,,,,,,,,,,,,,,,,,,,,,,,,,,,,,,,,,,,,,,,,,,
 New: 450.00,,,,,,,,,,,,,,,,,,,,,,,,,,,,,,,,,,,,,,,,,,,,,,,
 New: 430.00,,,,,,,,,,,,,,,,,,,,,,,,,,,,,,,,,,,,,,,,,,,,,,,
 New: 440.00,,,,,,,,,,,,,,,,,,,,,,,,,,,,,,,,,,,,,,,,,,,,,,,
,,,,,,,,,,,,,,,,,,,,,,,,,,,,,,,,,,,,,,,,,,,,,,,
,,,,,,,,,,,,,,,,,,,,,,,,,,,,,,,,,,,,,,,,,,,,,,,
,,,,,,,,,,,,,,,,,,,,,,,,,,,,,,,,,,,,,,,,,,,,,,,
,,,,,,,,,,,,,,,,,,,,,,,,,,,,,,,,,,,,,,,,,,,,,,,
,,,,,,,,,,,,,,,,,,,,,,,,,,,,,,,,,,,,,,,,,,,,,,,
,,,,,,,,,,,,,,,,,,,,,,,,,,,,,,,,,,,,,,,,,,,,,,,
,,,,,,,,,,,,,,,,,,,,,,,,,,,,,,,,,,,,,,,,,,,,,,,
,,,,,,,,,,,,,,,,,,,,,,,,,,,,,,,,,,,,,,,,,,,,,,,
,,,,,,,,,,,,,,,,,,,,,,,,,,,,,,,,,,,,,,,,,,,,,,,
,,,,,,,,,,,,,,,,,,,,,,,,,,,,,,,,,,,,,,,,,,,,,,,
,,,,,,,,,,,,,,,,,,,,,,,,,,,,,,,,,,,,,,,,,,,,,,,
,,,,,,,,,,,,,,,,,,,,,,,,,,,,,,,,,,,,,,,,,,,,,,,
,,,,,,,,,,,,,,,,,,,,,,,,,,,,,,,,,,,,,,,,,,,,,,,
,,,,,,,,,,,,,,,,,,,,,,,,,,,,,,,,,,,,,,,,,,,,,,,
,,,,,,,,,,,,,,,,,,,,,,,,,,,,,,,,,,,,,,,,,,,,,,,
,,,,,,,,,,,,,,,,,,,,,,,,,,,,,,,,,,,,,,,,,,,,,,,
,,,,,,,,,,,,,,,,,,,,,,,,,,,,,,,,,,,,,,,,,,,,,,,
,,,,,,,,,,,,,,,,,,,,,,,,,,,,,,,,,,,,,,,,,,,,,,,
,,,,,,,,,,,,,,,,,,,,,,,,,,,,,,,,,,,,,,,,,,,,,,,
,,,,,,,,,,,,,,,,,,,,,,,,,,,,,,,,,,,,,,,,,,,,,,,
,,,,,,,,,,,,,,,,,,,,,,,,,,,,,,,,,,,,,,,,,,,,,,,
,,,,,,,,,,,,,,,,,,,,,,,,,,,,,,,,,,,,,,,,,,,,,,,
,,,,,,,,,,,,,,,,,,,,,,,,,,,,,,,,,,,,,,,,,,,,,,,
,,,,,,,,,,,,,,,,,,,,,,,,,,,,,,,,,,,,,,,,,,,,,,,
,,,,,,,,,,,,,,,,,,,,,,,,,,,,,,,,,,,,,,,,,,,,,,,
,,,,,,,,,,,,,,,,,,,,,,,,,,,,,,,,,,,,,,,,,,,,,,,
,,,,,,,,,,,,,,,,,,,,,,,,,,,,,,,,,,,,,,,,,,,,,,,
,,,,,,,,,,,,,,,,,,,,,,,,,,,,,,,,,,,,,,,,,,,,,,,
,,,,,,,,,,,,,,,,,,,,,,,,,,,,,,,,,,,,,,,,,,,,,,,
 New:ON,,,,,,,,,,,,,,,,,,,,,,,,,,,,,,,,,,,,,,,,,,,,,,,
 New: 500.00,,,,,,,,,,,,,,,,,,,,,,,,,,,,,,,,,,,,,,,,,,,,,,,
 New:   0.15,,,,,,,,,,,,,,,,,,,,,,,,,,,,,,,,,,,,,,,,,,,,,,,
 New:Slow,,,,,,,,,,,,,,,,,,,,,,,,,,,,,,,,,,,,,,,,,,,,,,,
 New:0.50000,,,,,,,,,,,,,,,,,,,,,,,,,,,,,,,,,,,,,,,,,,,,,,,
 New: 500.00,,,,,,,,,,,,,,,,,,,,,,,,,,,,,,,,,,,,,,,,,,,,,,,
 New: 510.00,,,,,,,,,,,,,,,,,,,,,,,,,,,,,,,,,,,,,,,,,,,,,,,
 New: 700.00,,,,,,,,,,,,,,,,,,,,,,,,,,,,,,,,,,,,,,,,,,,,,,,
 New: 490.00,,,,,,,,,,,,,,,,,,,,,,,,,,,,,,,,,,,,,,,,,,,,,,,
 New: 500.00,,,,,,,,,,,,,,,,,,,,,,,,,,,,,,,,,,,,,,,,,,,,,,,
 New: 480.00,,,,,,,,,,,,,,,,,,,,,,,,,,,,,,,,,,,,,,,,,,,,,,,
 New: 490.00,,,,,,,,,,,,,,,,,,,,,,,,,,,,,,,,,,,,,,,,,,,,,,,
 New: 470.00,,,,,,,,,,,,,,,,,,,,,,,,,,,,,,,,,,,,,,,,,,,,,,,
 New: 480.00,,,,,,,,,,,,,,,,,,,,,,,,,,,,,,,,,,,,,,,,,,,,,,,
 New: 460.00,,,,,,,,,,,,,,,,,,,,,,,,,,,,,,,,,,,,,,,,,,,,,,,
 New: 470.00,,,,,,,,,,,,,,,,,,,,,,,,,,,,,,,,,,,,,,,,,,,,,,,
 New: 450.00,,,,,,,,,,,,,,,,,,,,,,,,,,,,,,,,,,,,,,,,,,,,,,,
 New: 460.00,,,,,,,,,,,,,,,,,,,,,,,,,,,,,,,,,,,,,,,,,,,,,,,
 New: 440.00,,,,,,,,,,,,,,,,,,,,,,,,,,,,,,,,,,,,,,,,,,,,,,,
 New: 450.00,,,,,,,,,,,,,,,,,,,,,,,,,,,,,,,,,,,,,,,,,,,,,,,
 New: 430.00,,,,,,,,,,,,,,,,,,,,,,,,,,,,,,,,,,,,,,,,,,,,,,,
 New: 440.00,,,,,,,,,,,,,,,,,,,,,,,,,,,,,,,,,,,,,,,,,,,,,,,
 New: 420.00,,,,,,,,,,,,,,,,,,,,,,,,,,,,,,,,,,,,,,,,,,,,,,,
 New: 430.00,,,,,,,,,,,,,,,,,,,,,,,,,,,,,,,,,,,,,,,,,,,,,,,
 New: 410.00,,,,,,,,,,,,,,,,,,,,,,,,,,,,,,,,,,,,,,,,,,,,,,,
 New: 420.00,,,,,,,,,,,,,,,,,,,,,,,,,,,,,,,,,,,,,,,,,,,,,,,
 New: 400.00,,,,,,,,,,,,,,,,,,,,,,,,,,,,,,,,,,,,,,,,,,,,,,,
 New: 410.00,,,,,,,,,,,,,,,,,,,,,,,,,,,,,,,,,,,,,,,,,,,,,,,
 New: 480.00,,,,,,,,,,,,,,,,,,,,,,,,,,,,,,,,,,,,,,,,,,,,,,,
 New: 490.00,,,,,,,,,,,,,,,,,,,,,,,,,,,,,,,,,,,,,,,,,,,,,,,
 New: 470.00,,,,,,,,,,,,,,,,,,,,,,,,,,,,,,,,,,,,,,,,,,,,,,,
 New: 480.00,,,,,,,,,,,,,,,,,,,,,,,,,,,,,,,,,,,,,,,,,,,,,,,
 New: 460.00,,,,,,,,,,,,,,,,,,,,,,,,,,,,,,,,,,,,,,,,,,,,,,,
 New: 470.00,,,,,,,,,,,,,,,,,,,,,,,,,,,,,,,,,,,,,,,,,,,,,,,
 New: 450.00,,,,,,,,,,,,,,,,,,,,,,,,,,,,,,,,,,,,,,,,,,,,,,,
 New: 460.00,,,,,,,,,,,,,,,,,,,,,,,,,,,,,,,,,,,,,,,,,,,,,,,
 New: 440.00,,,,,,,,,,,,,,,,,,,,,,,,,,,,,,,,,,,,,,,,,,,,,,,
 New: 450.00,,,,,,,,,,,,,,,,,,,,,,,,,,,,,,,,,,,,,,,,,,,,,,,
 New: 430.00,,,,,,,,,,,,,,,,,,,,,,,,,,,,,,,,,,,,,,,,,,,,,,,
 New: 440.00,,,,,,,,,,,,,,,,,,,,,,,,,,,,,,,,,,,,,,,,,,,,,,,
 New: 420.00,,,,,,,,,,,,,,,,,,,,,,,,,,,,,,,,,,,,,,,,,,,,,,,
 New: 430.00,,,,,,,,,,,,,,,,,,,,,,,,,,,,,,,,,,,,,,,,,,,,,,,
 New: 410.00,,,,,,,,,,,,,,,,,,,,,,,,,,,,,,,,,,,,,,,,,,,,,,,
 New: 420.00,,,,,,,,,,,,,,,,,,,,,,,,,,,,,,,,,,,,,,,,,,,,,,,
 New: 400.00,,,,,,,,,,,,,,,,,,,,,,,,,,,,,,,,,,,,,,,,,,,,,,,
 New: 410.00,,,,,,,,,,,,,,,,,,,,,,,,,,,,,,,,,,,,,,,,,,,,,,,
 New: 480.00,,,,,,,,,,,,,,,,,,,,,,,,,,,,,,,,,,,,,,,,,,,,,,,
 New: 490.00,,,,,,,,,,,,,,,,,,,,,,,,,,,,,,,,,,,,,,,,,,,,,,,
 New: 470.00,,,,,,,,,,,,,,,,,,,,,,,,,,,,,,,,,,,,,,,,,,,,,,,
 New: 480.00,,,,,,,,,,,,,,,,,,,,,,,,,,,,,,,,,,,,,,,,,,,,,,,
 New: 460.00,,,,,,,,,,,,,,,,,,,,,,,,,,,,,,,,,,,,,,,,,,,,,,,
 New: 470.00,,,,,,,,,,,,,,,,,,,,,,,,,,,,,,,,,,,,,,,,,,,,,,,
 New: 450.00,,,,,,,,,,,,,,,,,,,,,,,,,,,,,,,,,,,,,,,,,,,,,,,
 New: 460.00,,,,,,,,,,,,,,,,,,,,,,,,,,,,,,,,,,,,,,,,,,,,,,,
 New: 440.00,,,,,,,,,,,,,,,,,,,,,,,,,,,,,,,,,,,,,,,,,,,,,,,
 New: 450.00,,,,,,,,,,,,,,,,,,,,,,,,,,,,,,,,,,,,,,,,,,,,,,,
 New: 430.00,,,,,,,,,,,,,,,,,,,,,,,,,,,,,,,,,,,,,,,,,,,,,,,
 New: 440.00,,,,,,,,,,,,,,,,,,,,,,,,,,,,,,,,,,,,,,,,,,,,,,,
 New: 420.00,,,,,,,,,,,,,,,,,,,,,,,,,,,,,,,,,,,,,,,,,,,,,,,
 New: 430.00,,,,,,,,,,,,,,,,,,,,,,,,,,,,,,,,,,,,,,,,,,,,,,,
,,,,,,,,,,,,,,,,,,,,,,,,,,,,,,,,,,,,,,,,,,,,,,,
,,,,,,,,,,,,,,,,,,,,,,,,,,,,,,,,,,,,,,,,,,,,,,,
,,,,,,,,,,,,,,,,,,,,,,,,,,,,,,,,,,,,,,,,,,,,,,,
,,,,,,,,,,,,,,,,,,,,,,,,,,,,,,,,,,,,,,,,,,,,,,,
,,,,,,,,,,,,,,,,,,,,,,,,,,,,,,,,,,,,,,,,,,,,,,,
,,,,,,,,,,,,,,,,,,,,,,,,,,,,,,,,,,,,,,,,,,,,,,,
,,,,,,,,,,,,,,,,,,,,,,,,,,,,,,,,,,,,,,,,,,,,,,,
,,,,,,,,,,,,,,,,,,,,,,,,,,,,,,,,,,,,,,,,,,,,,,,
,,,,,,,,,,,,,,,,,,,,,,,,,,,,,,,,,,,,,,,,,,,,,,,
,,,,,,,,,,,,,,,,,,,,,,,,,,,,,,,,,,,,,,,,,,,,,,,
,,,,,,,,,,,,,,,,,,,,,,,,,,,,,,,,,,,,,,,,,,,,,,,
,,,,,,,,,,,,,,,,,,,,,,,,,,,,,,,,,,,,,,,,,,,,,,,
,,,,,,,,,,,,,,,,,,,,,,,,,,,,,,,,,,,,,,,,,,,,,,,
,,,,,,,,,,,,,,,,,,,,,,,,,,,,,,,,,,,,,,,,,,,,,,,
,,,,,,,,,,,,,,,,,,,,,,,,,,,,,,,,,,,,,,,,,,,,,,,
,,,,,,,,,,,,,,,,,,,,,,,,,,,,,,,,,,,,,,,,,,,,,,,
,,,,,,,,,,,,,,,,,,,,,,,,,,,,,,,,,,,,,,,,,,,,,,,
,,,,,,,,,,,,,,,,,,,,,,,,,,,,,,,,,,,,,,,,,,,,,,,
,,,,,,,,,,,,,,,,,,,,,,,,,,,,,,,,,,,,,,,,,,,,,,,
,,,,,,,,,,,,,,,,,,,,,,,,,,,,,,,,,,,,,,,,,,,,,,,
,,,,,,,,,,,,,,,,,,,,,,,,,,,,,,,,,,,,,,,,,,,,,,,
,,,,,,,,,,,,,,,,,,,,,,,,,,,,,,,,,,,,,,,,,,,,,,,
,,,,,,,,,,,,,,,,,,,,,,,,,,,,,,,,,,,,,,,,,,,,,,,
,,,,,,,,,,,,,,,,,,,,,,,,,,,,,,,,,,,,,,,,,,,,,,,
,,,,,,,,,,,,,,,,,,,,,,,,,,,,,,,,,,,,,,,,,,,,,,,
,,,,,,,,,,,,,,,,,,,,,,,,,,,,,,,,,,,,,,,,,,,,,,,
,,,,,,,,,,,,,,,,,,,,,,,,,,,,,,,,,,,,,,,,,,,,,,,
,,,,,,,,,,,,,,,,,,,,,,,,,,,,,,,,,,,,,,,,,,,,,,,
,,,,,,,,,,,,,,,,,,,,,,,,,,,,,,,,,,,,,,,,,,,,,,,
 New:ON,,,,,,,,,,,,,,,,,,,,,,,,,,,,,,,,,,,,,,,,,,,,,,,
 New: 500.00,,,,,,,,,,,,,,,,,,,,,,,,,,,,,,,,,,,,,,,,,,,,,,,
 New:   0.15,,,,,,,,,,,,,,,,,,,,,,,,,,,,,,,,,,,,,,,,,,,,,,,
 New:Slow,,,,,,,,,,,,,,,,,,,,,,,,,,,,,,,,,,,,,,,,,,,,,,,
 New:0.50000,,,,,,,,,,,,,,,,,,,,,,,,,,,,,,,,,,,,,,,,,,,,,,,
 New: 500.00,,,,,,,,,,,,,,,,,,,,,,,,,,,,,,,,,,,,,,,,,,,,,,,
 New: 510.00,,,,,,,,,,,,,,,,,,,,,,,,,,,,,,,,,,,,,,,,,,,,,,,
 New: 700.00,,,,,,,,,,,,,,,,,,,,,,,,,,,,,,,,,,,,,,,,,,,,,,,
 New: 490.00,,,,,,,,,,,,,,,,,,,,,,,,,,,,,,,,,,,,,,,,,,,,,,,
 New: 500.00,,,,,,,,,,,,,,,,,,,,,,,,,,,,,,,,,,,,,,,,,,,,,,,
 New: 480.00,,,,,,,,,,,,,,,,,,,,,,,,,,,,,,,,,,,,,,,,,,,,,,,
 New: 490.00,,,,,,,,,,,,,,,,,,,,,,,,,,,,,,,,,,,,,,,,,,,,,,,
 New: 470.00,,,,,,,,,,,,,,,,,,,,,,,,,,,,,,,,,,,,,,,,,,,,,,,
 New: 480.00,,,,,,,,,,,,,,,,,,,,,,,,,,,,,,,,,,,,,,,,,,,,,,,
 New: 460.00,,,,,,,,,,,,,,,,,,,,,,,,,,,,,,,,,,,,,,,,,,,,,,,
 New: 470.00,,,,,,,,,,,,,,,,,,,,,,,,,,,,,,,,,,,,,,,,,,,,,,,
 New: 450.00,,,,,,,,,,,,,,,,,,,,,,,,,,,,,,,,,,,,,,,,,,,,,,,
 New: 460.00,,,,,,,,,,,,,,,,,,,,,,,,,,,,,,,,,,,,,,,,,,,,,,,
 New: 440.00,,,,,,,,,,,,,,,,,,,,,,,,,,,,,,,,,,,,,,,,,,,,,,,
 New: 450.00,,,,,,,,,,,,,,,,,,,,,,,,,,,,,,,,,,,,,,,,,,,,,,,
 New: 430.00,,,,,,,,,,,,,,,,,,,,,,,,,,,,,,,,,,,,,,,,,,,,,,,
 New: 440.00,,,,,,,,,,,,,,,,,,,,,,,,,,,,,,,,,,,,,,,,,,,,,,,
 New: 420.00,,,,,,,,,,,,,,,,,,,,,,,,,,,,,,,,,,,,,,,,,,,,,,,
 New: 430.00,,,,,,,,,,,,,,,,,,,,,,,,,,,,,,,,,,,,,,,,,,,,,,,
 New: 410.00,,,,,,,,,,,,,,,,,,,,,,,,,,,,,,,,,,,,,,,,,,,,,,,
 New: 420.00,,,,,,,,,,,,,,,,,,,,,,,,,,,,,,,,,,,,,,,,,,,,,,,
 New: 400.00,,,,,,,,,,,,,,,,,,,,,,,,,,,,,,,,,,,,,,,,,,,,,,,
 New: 410.00,,,,,,,,,,,,,,,,,,,,,,,,,,,,,,,,,,,,,,,,,,,,,,,
 New: 480.00,,,,,,,,,,,,,,,,,,,,,,,,,,,,,,,,,,,,,,,,,,,,,,,
 New: 490.00,,,,,,,,,,,,,,,,,,,,,,,,,,,,,,,,,,,,,,,,,,,,,,,
 New: 470.00,,,,,,,,,,,,,,,,,,,,,,,,,,,,,,,,,,,,,,,,,,,,,,,
 New: 480.00,,,,,,,,,,,,,,,,,,,,,,,,,,,,,,,,,,,,,,,,,,,,,,,
 New: 460.00,,,,,,,,,,,,,,,,,,,,,,,,,,,,,,,,,,,,,,,,,,,,,,,
 New: 470.00,,,,,,,,,,,,,,,,,,,,,,,,,,,,,,,,,,,,,,,,,,,,,,,
 New: 450.00,,,,,,,,,,,,,,,,,,,,,,,,,,,,,,,,,,,,,,,,,,,,,,,
 New: 460.00,,,,,,,,,,,,,,,,,,,,,,,,,,,,,,,,,,,,,,,,,,,,,,,
 New: 440.00,,,,,,,,,,,,,,,,,,,,,,,,,,,,,,,,,,,,,,,,,,,,,,,
 New: 450.00,,,,,,,,,,,,,,,,,,,,,,,,,,,,,,,,,,,,,,,,,,,,,,,
 New: 430.00,,,,,,,,,,,,,,,,,,,,,,,,,,,,,,,,,,,,,,,,,,,,,,,
 New: 440.00,,,,,,,,,,,,,,,,,,,,,,,,,,,,,,,,,,,,,,,,,,,,,,,
 New: 420.00,,,,,,,,,,,,,,,,,,,,,,,,,,,,,,,,,,,,,,,,,,,,,,,
 New: 430.00,,,,,,,,,,,,,,,,,,,,,,,,,,,,,,,,,,,,,,,,,,,,,,,
 New: 410.00,,,,,,,,,,,,,,,,,,,,,,,,,,,,,,,,,,,,,,,,,,,,,,,
 New: 420.00,,,,,,,,,,,,,,,,,,,,,,,,,,,,,,,,,,,,,,,,,,,,,,,
 New: 400.00,,,,,,,,,,,,,,,,,,,,,,,,,,,,,,,,,,,,,,,,,,,,,,,
 New: 410.00,,,,,,,,,,,,,,,,,,,,,,,,,,,,,,,,,,,,,,,,,,,,,,,
 New: 480.00,,,,,,,,,,,,,,,,,,,,,,,,,,,,,,,,,,,,,,,,,,,,,,,
 New: 490.00,,,,,,,,,,,,,,,,,,,,,,,,,,,,,,,,,,,,,,,,,,,,,,,
 New: 470.00,,,,,,,,,,,,,,,,,,,,,,,,,,,,,,,,,,,,,,,,,,,,,,,
 New: 480.00,,,,,,,,,,,,,,,,,,,,,,,,,,,,,,,,,,,,,,,,,,,,,,,
 New: 460.00,,,,,,,,,,,,,,,,,,,,,,,,,,,,,,,,,,,,,,,,,,,,,,,
 New: 470.00,,,,,,,,,,,,,,,,,,,,,,,,,,,,,,,,,,,,,,,,,,,,,,,
 New: 450.00,,,,,,,,,,,,,,,,,,,,,,,,,,,,,,,,,,,,,,,,,,,,,,,
 New: 460.00,,,,,,,,,,,,,,,,,,,,,,,,,,,,,,,,,,,,,,,,,,,,,,,
 New: 440.00,,,,,,,,,,,,,,,,,,,,,,,,,,,,,,,,,,,,,,,,,,,,,,,
 New: 450.00,,,,,,,,,,,,,,,,,,,,,,,,,,,,,,,,,,,,,,,,,,,,,,,
 New: 430.00,,,,,,,,,,,,,,,,,,,,,,,,,,,,,,,,,,,,,,,,,,,,,,,
 New: 440.00,,,,,,,,,,,,,,,,,,,,,,,,,,,,,,,,,,,,,,,,,,,,,,,
 New: 420.00,,,,,,,,,,,,,,,,,,,,,,,,,,,,,,,,,,,,,,,,,,,,,,,
 New: 430.00,,,,,,,,,,,,,,,,,,,,,,,,,,,,,,,,,,,,,,,,,,,,,,,
 New: 410.00,,,,,,,,,,,,,,,,,,,,,,,,,,,,,,,,,,,,,,,,,,,,,,,
 New: 420.00,,,,,,,,,,,,,,,,,,,,,,,,,,,,,,,,,,,,,,,,,,,,,,,
,,,,,,,,,,,,,,,,,,,,,,,,,,,,,,,,,,,,,,,,,,,,,,,
,,,,,,,,,,,,,,,,,,,,,,,,,,,,,,,,,,,,,,,,,,,,,,,
,,,,,,,,,,,,,,,,,,,,,,,,,,,,,,,,,,,,,,,,,,,,,,,
,,,,,,,,,,,,,,,,,,,,,,,,,,,,,,,,,,,,,,,,,,,,,,,
,,,,,,,,,,,,,,,,,,,,,,,,,,,,,,,,,,,,,,,,,,,,,,,
,,,,,,,,,,,,,,,,,,,,,,,,,,,,,,,,,,,,,,,,,,,,,,,
,,,,,,,,,,,,,,,,,,,,,,,,,,,,,,,,,,,,,,,,,,,,,,,
,,,,,,,,,,,,,,,,,,,,,,,,,,,,,,,,,,,,,,,,,,,,,,,
,,,,,,,,,,,,,,,,,,,,,,,,,,,,,,,,,,,,,,,,,,,,,,,
,,,,,,,,,,,,,,,,,,,,,,,,,,,,,,,,,,,,,,,,,,,,,,,
,,,,,,,,,,,,,,,,,,,,,,,,,,,,,,,,,,,,,,,,,,,,,,,
,,,,,,,,,,,,,,,,,,,,,,,,,,,,,,,,,,,,,,,,,,,,,,,
,,,,,,,,,,,,,,,,,,,,,,,,,,,,,,,,,,,,,,,,,,,,,,,
,,,,,,,,,,,,,,,,,,,,,,,,,,,,,,,,,,,,,,,,,,,,,,,
,,,,,,,,,,,,,,,,,,,,,,,,,,,,,,,,,,,,,,,,,,,,,,,
,,,,,,,,,,,,,,,,,,,,,,,,,,,,,,,,,,,,,,,,,,,,,,,
,,,,,,,,,,,,,,,,,,,,,,,,,,,,,,,,,,,,,,,,,,,,,,,
,,,,,,,,,,,,,,,,,,,,,,,,,,,,,,,,,,,,,,,,,,,,,,,
,,,,,,,,,,,,,,,,,,,,,,,,,,,,,,,,,,,,,,,,,,,,,,,
,,,,,,,,,,,,,,,,,,,,,,,,,,,,,,,,,,,,,,,,,,,,,,,
,,,,,,,,,,,,,,,,,,,,,,,,,,,,,,,,,,,,,,,,,,,,,,,
,,,,,,,,,,,,,,,,,,,,,,,,,,,,,,,,,,,,,,,,,,,,,,,
,,,,,,,,,,,,,,,,,,,,,,,,,,,,,,,,,,,,,,,,,,,,,,,
,,,,,,,,,,,,,,,,,,,,,,,,,,,,,,,,,,,,,,,,,,,,,,,
,,,,,,,,,,,,,,,,,,,,,,,,,,,,,,,,,,,,,,,,,,,,,,,
,,,,,,,,,,,,,,,,,,,,,,,,,,,,,,,,,,,,,,,,,,,,,,,
,,,,,,,,,,,,,,,,,,,,,,,,,,,,,,,,,,,,,,,,,,,,,,,
,,,,,,,,,,,,,,,,,,,,,,,,,,,,,,,,,,,,,,,,,,,,,,,
,,,,,,,,,,,,,,,,,,,,,,,,,,,,,,,,,,,,,,,,,,,,,,,
 New:ON,,,,,,,,,,,,,,,,,,,,,,,,,,,,,,,,,,,,,,,,,,,,,,,
 New: 500.00,,,,,,,,,,,,,,,,,,,,,,,,,,,,,,,,,,,,,,,,,,,,,,,
 New:   0.15,,,,,,,,,,,,,,,,,,,,,,,,,,,,,,,,,,,,,,,,,,,,,,,
 New:Slow,,,,,,,,,,,,,,,,,,,,,,,,,,,,,,,,,,,,,,,,,,,,,,,
 New:0.50000,,,,,,,,,,,,,,,,,,,,,,,,,,,,,,,,,,,,,,,,,,,,,,,
 New: 500.00,,,,,,,,,,,,,,,,,,,,,,,,,,,,,,,,,,,,,,,,,,,,,,,
 New: 510.00,,,,,,,,,,,,,,,,,,,,,,,,,,,,,,,,,,,,,,,,,,,,,,,
 New: 700.00,,,,,,,,,,,,,,,,,,,,,,,,,,,,,,,,,,,,,,,,,,,,,,,
 New: 490.00,,,,,,,,,,,,,,,,,,,,,,,,,,,,,,,,,,,,,,,,,,,,,,,
 New: 500.00,,,,,,,,,,,,,,,,,,,,,,,,,,,,,,,,,,,,,,,,,,,,,,,
 New: 480.00,,,,,,,,,,,,,,,,,,,,,,,,,,,,,,,,,,,,,,,,,,,,,,,
 New: 490.00,,,,,,,,,,,,,,,,,,,,,,,,,,,,,,,,,,,,,,,,,,,,,,,
 New: 470.00,,,,,,,,,,,,,,,,,,,,,,,,,,,,,,,,,,,,,,,,,,,,,,,
 New: 480.00,,,,,,,,,,,,,,,,,,,,,,,,,,,,,,,,,,,,,,,,,,,,,,,
 New: 460.00,,,,,,,,,,,,,,,,,,,,,,,,,,,,,,,,,,,,,,,,,,,,,,,
 New: 470.00,,,,,,,,,,,,,,,,,,,,,,,,,,,,,,,,,,,,,,,,,,,,,,,
 New: 450.00,,,,,,,,,,,,,,,,,,,,,,,,,,,,,,,,,,,,,,,,,,,,,,,
 New: 460.00,,,,,,,,,,,,,,,,,,,,,,,,,,,,,,,,,,,,,,,,,,,,,,,
 New: 440.00,,,,,,,,,,,,,,,,,,,,,,,,,,,,,,,,,,,,,,,,,,,,,,,
 New: 450.00,,,,,,,,,,,,,,,,,,,,,,,,,,,,,,,,,,,,,,,,,,,,,,,
 New: 430.00,,,,,,,,,,,,,,,,,,,,,,,,,,,,,,,,,,,,,,,,,,,,,,,
 New: 440.00,,,,,,,,,,,,,,,,,,,,,,,,,,,,,,,,,,,,,,,,,,,,,,,
 New: 420.00,,,,,,,,,,,,,,,,,,,,,,,,,,,,,,,,,,,,,,,,,,,,,,,
 New: 430.00,,,,,,,,,,,,,,,,,,,,,,,,,,,,,,,,,,,,,,,,,,,,,,,
 New: 410.00,,,,,,,,,,,,,,,,,,,,,,,,,,,,,,,,,,,,,,,,,,,,,,,
 New: 420.00,,,,,,,,,,,,,,,,,,,,,,,,,,,,,,,,,,,,,,,,,,,,,,,
 New: 400.00,,,,,,,,,,,,,,,,,,,,,,,,,,,,,,,,,,,,,,,,,,,,,,,
 New: 410.00,,,,,,,,,,,,,,,,,,,,,,,,,,,,,,,,,,,,,,,,,,,,,,,
 New: 480.00,,,,,,,,,,,,,,,,,,,,,,,,,,,,,,,,,,,,,,,,,,,,,,,
 New: 490.00,,,,,,,,,,,,,,,,,,,,,,,,,,,,,,,,,,,,,,,,,,,,,,,
 New: 470.00,,,,,,,,,,,,,,,,,,,,,,,,,,,,,,,,,,,,,,,,,,,,,,,
 New: 480.00,,,,,,,,,,,,,,,,,,,,,,,,,,,,,,,,,,,,,,,,,,,,,,,
 New: 460.00,,,,,,,,,,,,,,,,,,,,,,,,,,,,,,,,,,,,,,,,,,,,,,,
 New: 470.00,,,,,,,,,,,,,,,,,,,,,,,,,,,,,,,,,,,,,,,,,,,,,,,
 New: 450.00,,,,,,,,,,,,,,,,,,,,,,,,,,,,,,,,,,,,,,,,,,,,,,,
 New: 460.00,,,,,,,,,,,,,,,,,,,,,,,,,,,,,,,,,,,,,,,,,,,,,,,
 New: 440.00,,,,,,,,,,,,,,,,,,,,,,,,,,,,,,,,,,,,,,,,,,,,,,,
 New: 450.00,,,,,,,,,,,,,,,,,,,,,,,,,,,,,,,,,,,,,,,,,,,,,,,
 New: 430.00,,,,,,,,,,,,,,,,,,,,,,,,,,,,,,,,,,,,,,,,,,,,,,,
 New: 440.00,,,,,,,,,,,,,,,,,,,,,,,,,,,,,,,,,,,,,,,,,,,,,,,
 New: 420.00,,,,,,,,,,,,,,,,,,,,,,,,,,,,,,,,,,,,,,,,,,,,,,,
 New: 430.00,,,,,,,,,,,,,,,,,,,,,,,,,,,,,,,,,,,,,,,,,,,,,,,
 New: 410.00,,,,,,,,,,,,,,,,,,,,,,,,,,,,,,,,,,,,,,,,,,,,,,,
 New: 420.00,,,,,,,,,,,,,,,,,,,,,,,,,,,,,,,,,,,,,,,,,,,,,,,
 New: 400.00,,,,,,,,,,,,,,,,,,,,,,,,,,,,,,,,,,,,,,,,,,,,,,,
 New: 410.00,,,,,,,,,,,,,,,,,,,,,,,,,,,,,,,,,,,,,,,,,,,,,,,
 New: 480.00,,,,,,,,,,,,,,,,,,,,,,,,,,,,,,,,,,,,,,,,,,,,,,,
 New: 490.00,,,,,,,,,,,,,,,,,,,,,,,,,,,,,,,,,,,,,,,,,,,,,,,
 New: 470.00,,,,,,,,,,,,,,,,,,,,,,,,,,,,,,,,,,,,,,,,,,,,,,,
 New: 480.00,,,,,,,,,,,,,,,,,,,,,,,,,,,,,,,,,,,,,,,,,,,,,,,
 New: 460.00,,,,,,,,,,,,,,,,,,,,,,,,,,,,,,,,,,,,,,,,,,,,,,,
 New: 470.00,,,,,,,,,,,,,,,,,,,,,,,,,,,,,,,,,,,,,,,,,,,,,,,
 New: 450.00,,,,,,,,,,,,,,,,,,,,,,,,,,,,,,,,,,,,,,,,,,,,,,,
 New: 460.00,,,,,,,,,,,,,,,,,,,,,,,,,,,,,,,,,,,,,,,,,,,,,,,
 New: 440.00,,,,,,,,,,,,,,,,,,,,,,,,,,,,,,,,,,,,,,,,,,,,,,,
 New: 450.00,,,,,,,,,,,,,,,,,,,,,,,,,,,,,,,,,,,,,,,,,,,,,,,
 New: 430.00,,,,,,,,,,,,,,,,,,,,,,,,,,,,,,,,,,,,,,,,,,,,,,,
 New: 440.00,,,,,,,,,,,,,,,,,,,,,,,,,,,,,,,,,,,,,,,,,,,,,,,
 New: 420.00,,,,,,,,,,,,,,,,,,,,,,,,,,,,,,,,,,,,,,,,,,,,,,,
 New: 430.00,,,,,,,,,,,,,,,,,,,,,,,,,,,,,,,,,,,,,,,,,,,,,,,
 New: 410.00,,,,,,,,,,,,,,,,,,,,,,,,,,,,,,,,,,,,,,,,,,,,,,,
 New: 420.00,,,,,,,,,,,,,,,,,,,,,,,,,,,,,,,,,,,,,,,,,,,,,,,
 New: 400.00,,,,,,,,,,,,,,,,,,,,,,,,,,,,,,,,,,,,,,,,,,,,,,,
 New: 410.00,,,,,,,,,,,,,,,,,,,,,,,,,,,,,,,,,,,,,,,,,,,,,,,